{
  "resourceType": "EvidenceVariable",
  "id": "example-fatal-ICH-in-7-days",
  "text": {
    "status": "generated",
    "div": "\u003cdiv xmlns\u003d\"http://www.w3.org/1999/xhtml\"\u003e\n      \n      \u003cp\u003e\n        \u0026quot;Fatal Intracranial Hemorrhage Within Seven Days\u0026quot; is an outcome used in expressing what an Evidence is about.\n      \u003c/p\u003e\n\t\n    \u003c/div\u003e"
  },
  "contained": [
    {
      "resourceType": "Group",
      "id": "Cohort-Definition",
      "title": "CohortDefinition: Fatal Intracranial Hemorrhage",
      "membership": "conceptual",
      "combinationMethod": "all-of",
      "characteristic": [
        {
          "code": {
            "coding": [
              {
                "system": "http://snomed.info/sct",
                "code": "260905004",
                "display": "Condition"
              }
            ]
          },
          "valueCodeableConcept": {
            "coding": [
              {
                "system": "http://snomed.info/sct",
                "code": "1386000",
                "display": "Intracranial hemorrhage (disorder)"
              }
            ]
          },
          "exclude": false,
          "description": "intracranial hemorrhage"
        },
        {
          "code": {
            "text": "resulting in"
          },
          "valueCodeableConcept": {
            "coding": [
              {
                "system": "http://snomed.info/sct",
                "code": "419620001",
                "display": "Death (event)"
              }
            ]
          },
          "exclude": false,
          "description": "resulting in death"
        }
      ]
    },
    {
      "resourceType": "Group",
      "id": "Definition-Group",
      "title": "VariableDefinition: Fatal Intracranial Hemorrhage Within Seven Days",
      "type": "person",
      "membership": "definitional",
      "characteristic": [
        {
          "code": {
            "coding": [
              {
                "system": "http://snomed.info/sct",
                "code": "260905004",
                "display": "Condition"
              }
            ]
          },
          "valueReference": {
            "reference": "#Cohort-Definition"
          },
          "exclude": false,
          "description": "fatal intracranial hemorrhage within 7 days",
          "timing": [
            {
              "contextCode": {
                "coding": [
                  {
                    "system": "http://hl7.org/fhir/evidence-variable-event",
                    "code": "study-start",
                    "display": "Study Start"
                  }
                ]
              },
              "offsetDuration": {
                "value": 7,
                "unit": "days",
                "system": "http://unitsofmeasure.org",
                "code": "d"
              }
            }
          ]
        }
      ]
    }
  ],
  "extension": [
    {
      "url": "http://hl7.org/fhir/StructureDefinition/structuredefinition-wg",
      "valueCode": "cds"
    }
  ],
  "name": "FatalIntracranialHemorrhageWithinSevenDays",
  "title": "Fatal Intracranial Hemorrhage Within Seven Days",
  "status": "draft",
  "publisher": "HL7 International / Clinical Decision Support",
  "contact": [
    {
      "telecom": [
        {
          "system": "url"
        }
      ]
    }
  ],
  "description": "Fatal Intracranial Hemorrhage Within Seven Days",
  "actual": true,
  "definition": {
    "reference": {
      "reference": "#Definition-Group"
    }
  },
  "handling": "dichotomous",
  "meta": {
    "tag": [
      {
        "system": "http://terminology.hl7.org/CodeSystem/v3-ActReason",
        "code": "HTEST",
        "display": "test health data"
      }
    ]
  }
}